.maxVal,.nDown,.staircase,.minVal,.stepType,.label,.stepSizes,.nUp,.startVal,.condition,.thisIndex,.thisRepN,.thisN,.direction,.stepSize,.intensity,actual_onset_time,actual_offset_time,intertrial_interval,prestimulus_period,stimulus_presentation_window,poststimulus_waiting_period,correct_answer,answer_choice_position,answer_choice,is_correct,RT,.response,wordlist,gender,date-run,hand,conditions,subject,
None,1,baseline,0.05,db,easy,4,3,2.0,Auditory,0,1,0,start,4,2.0,1.76666666667,2.73431251734,1,1,1,1,duel,right,duel,True,76.8398749828,True,list1.yaml,female,2017-Jan-19-155340,right,"['Auditory', 'Environmental', 'Visual', 'Phoneme']",Rae_1_A_E_AV_P,
None,1,baseline,0.05,db,hard,4,1,2.0,Auditory,1,1,1,start,4,2.0,1.1,2.20110417465,1,1,1,1,dried,down,ride,False,86.8233249187,False,list1.yaml,female,2017-Jan-19-155340,right,"['Auditory', 'Environmental', 'Visual', 'Phoneme']",Rae_1_A_E_AV_P,
None,1,baseline,0.05,db,hard,4,1,2.0,Auditory,1,2,2,up,4,3.16978638492,0.116666666667,1.08431251734,1,1,1,1,main,up,main,True,95.9832141399,True,list1.yaml,female,2017-Jan-19-155340,right,"['Auditory', 'Environmental', 'Visual', 'Phoneme']",Rae_1_A_E_AV_P,
None,1,baseline,0.05,db,easy,4,3,2.0,Auditory,0,2,3,down,4,1.26191468896,1.66666666667,2.66766663946,1,1,1,1,brink,left,brink,True,106.50316,True,list1.yaml,female,2017-Jan-19-155340,right,"['Auditory', 'Environmental', 'Visual', 'Phoneme']",Rae_1_A_E_AV_P,
None,1,baseline,0.05,db,easy,4,3,2.0,Auditory,0,3,4,down,4,0.796214341107,0.45,1.68458334177,1,1,1,1,sprain,right,slain,False,116.742777109,False,list1.yaml,female,2017-Jan-19-155340,right,"['Auditory', 'Environmental', 'Visual', 'Phoneme']",Rae_1_A_E_AV_P,
None,1,baseline,0.05,db,hard,4,1,2.0,Auditory,1,3,5,down,4,2.0,0.866666666667,2.00114585634,1,1,1,1,pick,left,tick,False,126.238703012,False,list1.yaml,female,2017-Jan-19-155340,right,"['Auditory', 'Environmental', 'Visual', 'Phoneme']",Rae_1_A_E_AV_P,
None,1,baseline,0.05,db,easy,4,3,2.0,Auditory,0,4,6,up,4,1.26191468896,0.716666666667,1.58420830653,1,1,1,1,told,left,gold,False,135.462532043,False,list1.yaml,female,2017-Jan-19-155340,right,"['Auditory', 'Environmental', 'Visual', 'Phoneme']",Rae_1_A_E_AV_P,
None,1,baseline,0.05,db,hard,4,1,2.0,Auditory,1,4,7,up,4,3.16978638492,0.3,1.66804169518,1,1,1,1,stride,left,stride,True,144.566365957,True,list1.yaml,female,2017-Jan-19-155340,right,"['Auditory', 'Environmental', 'Visual', 'Phoneme']",Rae_1_A_E_AV_P,
None,1,baseline,0.05,db,hard,4,1,2.0,Auditory,1,5,8,down,4,2.0,0.35,1.38437500096,1,1,1,1,hose,up,chose,False,154.182259083,False,list1.yaml,female,2017-Jan-19-155340,right,"['Auditory', 'Environmental', 'Visual', 'Phoneme']",Rae_1_A_E_AV_P,
None,1,baseline,0.05,db,easy,4,3,2.0,Auditory,0,5,9,up,4,1.26191468896,1.63333333333,2.80116664654,1,1,1,1,thing,left,think,False,164.454164982,False,list1.yaml,female,2017-Jan-19-155340,right,"['Auditory', 'Environmental', 'Visual', 'Phoneme']",Rae_1_A_E_AV_P,
None,1,baseline,0.05,db,easy,4,3,2.0,Phoneme,0,1,0,start,4,2.0,1.76666666667,2.86777084132,1,1,1,1,eshe,up,eshe,True,174.557955027,True,list1.yaml,female,2017-Jan-19-155340,right,"['Auditory', 'Environmental', 'Visual', 'Phoneme']",Rae_1_A_E_AV_P,
None,1,baseline,0.05,db,hard,4,1,2.0,Phoneme,1,1,1,start,4,2.0,1.51666666667,2.58441665359,1,1,1,1,aya,right,aya,True,184.605695963,True,list1.yaml,female,2017-Jan-19-155340,right,"['Auditory', 'Environmental', 'Visual', 'Phoneme']",Rae_1_A_E_AV_P,
None,1,baseline,0.05,db,easy,4,3,2.0,Phoneme,0,2,2,down,4,1.26191468896,1.36666666667,2.13410413369,1,1,1,1,ishi,down,ishi,True,193.733495951,True,list1.yaml,female,2017-Jan-19-155340,right,"['Auditory', 'Environmental', 'Visual', 'Phoneme']",Rae_1_A_E_AV_P,
None,1,baseline,0.05,db,hard,4,1,2.0,Phoneme,1,2,3,down,4,1.26191468896,1.56666666667,2.53431251734,1,1,1,1,asha,up,ana,False,203.205457926,False,list1.yaml,female,2017-Jan-19-155340,right,"['Auditory', 'Environmental', 'Visual', 'Phoneme']",Rae_1_A_E_AV_P,
None,1,baseline,0.05,db,hard,4,1,2.0,Phoneme,1,3,4,up,4,2.0,1.45,2.21743746703,1,1,1,1,eke,right,eke,True,212.677222013,True,list1.yaml,female,2017-Jan-19-155340,right,"['Auditory', 'Environmental', 'Visual', 'Phoneme']",Rae_1_A_E_AV_P,
None,1,baseline,0.05,db,easy,4,3,2.0,Phoneme,0,3,5,down,4,0.796214341107,1.78333333333,2.65087497319,1,1,1,1,iti,down,ichi,False,222.373070002,False,list1.yaml,female,2017-Jan-19-155340,right,"['Auditory', 'Environmental', 'Visual', 'Phoneme']",Rae_1_A_E_AV_P,
None,1,baseline,0.05,db,easy,4,3,2.0,Phoneme,0,4,6,up,4,1.26191468896,1.11666666667,2.18441665359,1,1,1,1,oto,down,oto,True,232.292959929,True,list1.yaml,female,2017-Jan-19-155340,right,"['Auditory', 'Environmental', 'Visual', 'Phoneme']",Rae_1_A_E_AV_P,
None,1,baseline,0.05,db,hard,4,1,2.0,Phoneme,1,4,7,down,4,1.26191468896,0.05,0.884166693764,1,1,1,1,ele,right,ele,True,242.780791998,True,list1.yaml,female,2017-Jan-19-155340,right,"['Auditory', 'Environmental', 'Visual', 'Phoneme']",Rae_1_A_E_AV_P,
None,1,baseline,0.05,db,easy,4,3,2.0,Phoneme,0,5,8,down,4,0.796214341107,1.2,2.06754163986,1,1,1,1,ete,down,ete,True,252.90061307,True,list1.yaml,female,2017-Jan-19-155340,right,"['Auditory', 'Environmental', 'Visual', 'Phoneme']",Rae_1_A_E_AV_P,
None,1,baseline,0.05,db,hard,4,1,2.0,Phoneme,1,5,9,down,4,0.796214341107,0.633333333333,1.56760421104,1,1,1,1,umu,left,ulu,False,262.92442894,False,list1.yaml,female,2017-Jan-19-155340,right,"['Auditory', 'Environmental', 'Visual', 'Phoneme']",Rae_1_A_E_AV_P,
None,1,baseline,0.05,db,easy,2,3,4.0,Environmental,0,1,0,start,2,4.0,1.0,2.0,1,1,1,1,soda can,left,soda can,True,272.732219934,True,list1.yaml,female,2017-Jan-19-155340,right,"['Auditory', 'Environmental', 'Visual', 'Phoneme']",Rae_1_A_E_AV_P,
None,1,baseline,0.05,db,hard,2,1,4.0,Environmental,1,1,1,start,2,4.0,0.583333333333,1.53066663881,1,1,1,1,boat horn,up,boat horn,True,282.508085012,True,list1.yaml,female,2017-Jan-19-155340,right,"['Auditory', 'Environmental', 'Visual', 'Phoneme']",Rae_1_A_E_AV_P,
None,1,baseline,0.05,db,hard,2,1,4.0,Environmental,1,2,2,down,2,3.1773129389,0.866666666667,1.86666666667,1,1,1,1,racecar,left,racecar,True,292.499925137,True,list1.yaml,female,2017-Jan-19-155340,right,"['Auditory', 'Environmental', 'Visual', 'Phoneme']",Rae_1_A_E_AV_P,
None,1,baseline,0.05,db,easy,2,3,4.0,Environmental,0,2,3,down,2,3.1773129389,1.51666666667,2.51556245955,1,1,1,1,pig,up,pig,True,302.667727947,True,list1.yaml,female,2017-Jan-19-155340,right,"['Auditory', 'Environmental', 'Visual', 'Phoneme']",Rae_1_A_E_AV_P,
None,1,baseline,0.05,db,easy,2,3,4.0,Environmental,0,3,4,down,2,2.52382937792,0.933333333333,1.93304171327,1,1,1,1,monkeys,up,monkeys,True,311.755528927,True,list1.yaml,female,2017-Jan-19-155340,right,"['Auditory', 'Environmental', 'Visual', 'Phoneme']",Rae_1_A_E_AV_P,
None,1,baseline,0.05,db,hard,2,1,4.0,Environmental,1,3,5,down,2,2.52382937792,0.866666666667,1.86533330286,1,1,1,1,dog whining,right,dog whining,True,322.179417133,True,list1.yaml,female,2017-Jan-19-155340,right,"['Auditory', 'Environmental', 'Visual', 'Phoneme']",Rae_1_A_E_AV_P,
None,1,baseline,0.05,db,hard,2,1,4.0,Environmental,1,4,6,down,2,2.00474893451,1.2,1.98043748407,1,1,1,1,cricket,down,cricket,True,331.203272104,True,list1.yaml,female,2017-Jan-19-155340,right,"['Auditory', 'Environmental', 'Visual', 'Phoneme']",Rae_1_A_E_AV_P,
None,1,baseline,0.05,db,easy,2,3,4.0,Environmental,0,4,7,down,2,2.00474893451,1.11666666667,2.05483334806,1,1,1,1,horse,down,cow,False,341.051070929,False,list1.yaml,female,2017-Jan-19-155340,right,"['Auditory', 'Environmental', 'Visual', 'Phoneme']",Rae_1_A_E_AV_P,
None,1,baseline,0.05,db,easy,2,3,4.0,Environmental,0,5,8,up,2,2.52382937792,1.13333333333,2.13256252463,1,1,1,1,rooster,left,rooster,True,350.898936987,True,list1.yaml,female,2017-Jan-19-155340,right,"['Auditory', 'Environmental', 'Visual', 'Phoneme']",Rae_1_A_E_AV_P,
None,1,baseline,0.05,db,hard,2,1,4.0,Environmental,1,5,9,down,2,1.59242868221,0.05,0.712604179017,1,1,1,1,cymbal,up,slot machine,False,361.674715042,False,list1.yaml,female,2017-Jan-19-155340,right,"['Auditory', 'Environmental', 'Visual', 'Phoneme']",Rae_1_A_E_AV_P,
None,1,baseline,0.05,db,easy,4,3,1.0,Visual,0,1,0,start,4,1.0,0.35,1.55120836698,1,1,1,1,tent,up,sent,False,402.9620471,False,list1.yaml,female,2017-Jan-19-155340,right,"['Auditory', 'Environmental', 'Visual', 'Phoneme']",Rae_1_A_E_AV_P,
None,1,baseline,0.05,db,hard,4,1,1.0,Visual,1,1,1,start,4,1.0,0.233333333333,1.4679166751,1,1,1,1,sent,down,tent,False,413.649969101,False,list1.yaml,female,2017-Jan-19-155340,right,"['Auditory', 'Environmental', 'Visual', 'Phoneme']",Rae_1_A_E_AV_P,
None,1,baseline,0.05,db,easy,4,3,1.0,Visual,0,2,2,up,4,1.58489319246,1.05,2.11774998692,1,1,1,1,wore,right,wore,True,422.889744043,True,list1.yaml,female,2017-Jan-19-155340,right,"['Auditory', 'Environmental', 'Visual', 'Phoneme']",Rae_1_A_E_AV_P,
None,1,baseline,0.05,db,hard,4,1,1.0,Visual,1,2,3,up,4,1.58489319246,1.5,2.76793751008,1,1,1,1,pin,down,bin,False,432.057600975,False,list1.yaml,female,2017-Jan-19-155340,right,"['Auditory', 'Environmental', 'Visual', 'Phoneme']",Rae_1_A_E_AV_P,
None,1,baseline,0.05,db,easy,4,3,1.0,Visual,0,3,4,down,4,1.0,0.733333333333,2.36831249071,1,1,1,1,verge,right,verve,False,443.297333002,False,list1.yaml,female,2017-Jan-19-155340,right,"['Auditory', 'Environmental', 'Visual', 'Phoneme']",Rae_1_A_E_AV_P,
None,1,baseline,0.05,db,hard,4,1,1.0,Visual,1,3,5,up,4,2.51188643151,1.18333333333,2.28443750799,1,1,1,1,bee,right,bee,True,452.321202993,True,list1.yaml,female,2017-Jan-19-155340,right,"['Auditory', 'Environmental', 'Visual', 'Phoneme']",Rae_1_A_E_AV_P,
None,1,baseline,0.05,db,hard,4,1,1.0,Visual,1,4,6,down,4,1.58489319246,0.883333333333,2.38483333732,1,1,1,1,show,left,show,True,461.73696804,True,list1.yaml,female,2017-Jan-19-155340,right,"['Auditory', 'Environmental', 'Visual', 'Phoneme']",Rae_1_A_E_AV_P,
None,1,baseline,0.05,db,easy,4,3,1.0,Visual,0,4,7,down,4,1.0,1.75,2.78437500096,1,1,1,1,terse,right,terse,True,472.160785913,True,list1.yaml,female,2017-Jan-19-155340,right,"['Auditory', 'Environmental', 'Visual', 'Phoneme']",Rae_1_A_E_AV_P,
None,1,baseline,0.05,db,hard,4,1,1.0,Visual,1,5,8,down,4,1.0,0.7,1.93458334177,1,1,1,1,bore,down,bore,True,482.552724123,True,list1.yaml,female,2017-Jan-19-155340,right,"['Auditory', 'Environmental', 'Visual', 'Phoneme']",Rae_1_A_E_AV_P,
None,1,baseline,0.05,db,easy,4,3,1.0,Visual,0,5,9,down,4,0.63095734448,0.866666666667,2.06787503365,1,1,1,1,frame,down,frame,True,492.360659122,True,list1.yaml,female,2017-Jan-19-155340,right,"['Auditory', 'Environmental', 'Visual', 'Phoneme']",Rae_1_A_E_AV_P,
None,1,baseline,0.05,db,hard,4,1,2.0,Auditory,1,6,10,up,4,3.16978638492,0.633333333333,1.53424999363,1,1,1,1,drool,right,drool,True,502.504400969,True,list1.yaml,female,2017-Jan-19-155340,right,"['Auditory', 'Environmental', 'Visual', 'Phoneme']",Rae_1_A_E_AV_P,
None,1,baseline,0.05,db,easy,4,3,2.0,Auditory,0,6,11,up,4,1.26191468896,0.266666666667,1.56797919375,1,1,1,1,slide,right,slide,True,512.520302057,True,list1.yaml,female,2017-Jan-19-155340,right,"['Auditory', 'Environmental', 'Visual', 'Phoneme']",Rae_1_A_E_AV_P,
None,1,baseline,0.05,db,easy,4,3,2.0,Auditory,0,7,12,down,4,0.796214341107,1.15,2.35120836698,1,1,1,1,code,up,cove,False,522.488075972,False,list1.yaml,female,2017-Jan-19-155340,right,"['Auditory', 'Environmental', 'Visual', 'Phoneme']",Rae_1_A_E_AV_P,
None,1,baseline,0.05,db,hard,4,1,2.0,Auditory,1,7,13,down,4,2.0,1.0,2.23458334177,1,1,1,1,gold,up,gold,True,531.735870123,True,list1.yaml,female,2017-Jan-19-155340,right,"['Auditory', 'Environmental', 'Visual', 'Phoneme']",Rae_1_A_E_AV_P,
None,1,baseline,0.05,db,easy,4,3,2.0,Auditory,0,8,14,down,4,0.796214341107,1.33333333333,2.3677083343,1,1,1,1,mug,right,mug,True,542.2237041,True,list1.yaml,female,2017-Jan-19-155340,right,"['Auditory', 'Environmental', 'Visual', 'Phoneme']",Rae_1_A_E_AV_P,
None,1,baseline,0.05,db,hard,4,1,2.0,Auditory,1,8,15,down,4,1.26191468896,0.95,2.35141661791,1,1,1,1,guilt,up,guilt,True,552.327605963,True,list1.yaml,female,2017-Jan-19-155340,right,"['Auditory', 'Environmental', 'Visual', 'Phoneme']",Rae_1_A_E_AV_P,
None,1,baseline,0.05,db,hard,4,1,2.0,Auditory,1,9,16,down,4,0.796214341107,0.183333333333,1.35116664654,1,1,1,1,vest,up,rest,False,563.263277054,False,list1.yaml,female,2017-Jan-19-155340,right,"['Auditory', 'Environmental', 'Visual', 'Phoneme']",Rae_1_A_E_AV_P,
None,1,baseline,0.05,db,easy,4,3,2.0,Auditory,0,9,17,down,4,0.502377286302,0.466666666667,1.73460417675,1,1,1,1,froze,right,chose,False,573.439085007,False,list1.yaml,female,2017-Jan-19-155340,right,"['Auditory', 'Environmental', 'Visual', 'Phoneme']",Rae_1_A_E_AV_P,
None,1,baseline,0.05,db,hard,4,1,2.0,Auditory,1,10,18,up,4,1.26191468896,0.466666666667,1.70125000843,1,1,1,1,think,left,think,True,583.638997078,True,list1.yaml,female,2017-Jan-19-155340,right,"['Auditory', 'Environmental', 'Visual', 'Phoneme']",Rae_1_A_E_AV_P,
None,1,baseline,0.05,db,easy,4,3,2.0,Auditory,0,10,19,down,4,0.502377286302,0.5,1.53437500096,1,1,1,1,tick,up,wick,False,594.087016106,False,list1.yaml,female,2017-Jan-19-155340,right,"['Auditory', 'Environmental', 'Visual', 'Phoneme']",Rae_1_A_E_AV_P,
None,1,baseline,0.05,db,hard,4,1,2.0,Phoneme,1,6,10,up,4,1.26191468896,1.4,2.40099997279,1,1,1,1,oho,left,oro,False,606.086650133,False,list1.yaml,female,2017-Jan-19-155340,right,"['Auditory', 'Environmental', 'Visual', 'Phoneme']",Rae_1_A_E_AV_P,
None,1,baseline,0.05,db,easy,4,3,2.0,Phoneme,0,6,11,down,4,0.502377286302,0.466666666667,1.40093754438,1,1,1,1,ana,right,ara,False,616.278445959,False,list1.yaml,female,2017-Jan-19-155340,right,"['Auditory', 'Environmental', 'Visual', 'Phoneme']",Rae_1_A_E_AV_P,
None,1,baseline,0.05,db,hard,4,1,2.0,Phoneme,1,7,12,up,4,2.0,1.68333333333,2.61760421104,1,1,1,1,unu,up,unu,True,625.998183012,True,list1.yaml,female,2017-Jan-19-155340,right,"['Auditory', 'Environmental', 'Visual', 'Phoneme']",Rae_1_A_E_AV_P,
None,1,baseline,0.05,db,easy,4,3,2.0,Phoneme,0,7,13,down,4,0.502377286302,1.05,1.88416669376,1,1,1,1,ewe,left,eche,False,636.574167967,False,list1.yaml,female,2017-Jan-19-155340,right,"['Auditory', 'Environmental', 'Visual', 'Phoneme']",Rae_1_A_E_AV_P,
None,1,baseline,0.05,db,easy,4,3,2.0,Phoneme,0,8,14,down,4,0.502377286302,1.33333333333,2.1675000271,1,1,1,1,ese,up,eye,False,646.085911036,False,list1.yaml,female,2017-Jan-19-155340,right,"['Auditory', 'Environmental', 'Visual', 'Phoneme']",Rae_1_A_E_AV_P,
None,1,baseline,0.05,db,hard,4,1,2.0,Phoneme,1,8,15,down,4,1.26191468896,0.416666666667,1.21747918234,1,1,1,1,ili,up,ili,True,656.085739136,True,list1.yaml,female,2017-Jan-19-155340,right,"['Auditory', 'Environmental', 'Visual', 'Phoneme']",Rae_1_A_E_AV_P,
None,1,baseline,0.05,db,hard,4,1,2.0,Phoneme,1,9,16,down,4,0.796214341107,0.216666666667,1.25104166763,1,1,1,1,uku,down,uku,True,665.317565918,True,list1.yaml,female,2017-Jan-19-155340,right,"['Auditory', 'Environmental', 'Visual', 'Phoneme']",Rae_1_A_E_AV_P,
None,1,baseline,0.05,db,easy,4,3,2.0,Phoneme,0,9,17,up,4,0.796214341107,1.45,2.38427087771,1,1,1,1,olo,right,olo,True,675.437464952,True,list1.yaml,female,2017-Jan-19-155340,right,"['Auditory', 'Environmental', 'Visual', 'Phoneme']",Rae_1_A_E_AV_P,
None,1,baseline,0.05,db,easy,4,3,2.0,Phoneme,0,10,18,down,4,0.502377286302,1.61666666667,2.61766663946,1,1,1,1,awa,right,awa,True,686.037395,True,list1.yaml,female,2017-Jan-19-155340,right,"['Auditory', 'Environmental', 'Visual', 'Phoneme']",Rae_1_A_E_AV_P,
None,1,baseline,0.05,db,hard,4,1,2.0,Phoneme,1,10,19,down,4,0.502377286302,0.75,2.05131252708,1,1,1,1,ulu,down,ulu,True,697.46104002,True,list1.yaml,female,2017-Jan-19-155340,right,"['Auditory', 'Environmental', 'Visual', 'Phoneme']",Rae_1_A_E_AV_P,
None,1,baseline,0.05,db,easy,2,3,4.0,Environmental,0,6,10,down,2,2.00474893451,1.93333333333,2.68081248933,1,1,1,1,coin dropping,left,coin dropping,True,738.53235507,True,list1.yaml,female,2017-Jan-19-155340,right,"['Auditory', 'Environmental', 'Visual', 'Phoneme']",Rae_1_A_E_AV_P,
None,1,baseline,0.05,db,hard,2,1,4.0,Environmental,1,6,11,up,2,2.00474893451,0.433333333333,1.43364581889,1,1,1,1,wind chimes,down,cash register,False,749.068396091,False,list1.yaml,female,2017-Jan-19-155340,right,"['Auditory', 'Environmental', 'Visual', 'Phoneme']",Rae_1_A_E_AV_P,
None,1,baseline,0.05,db,hard,2,1,4.0,Environmental,1,7,12,up,2,2.52382937792,0.25,1.25145832469,1,1,1,1,tambourine,left,tambourine,True,757.963961124,True,list1.yaml,female,2017-Jan-19-155340,right,"['Auditory', 'Environmental', 'Visual', 'Phoneme']",Rae_1_A_E_AV_P,
None,1,baseline,0.05,db,easy,2,3,4.0,Environmental,0,7,13,down,2,1.59242868221,0.0333333333333,0.999979208095,1,1,1,1,fireworks,right,truck backing up,False,768.075890064,False,list1.yaml,female,2017-Jan-19-155340,right,"['Auditory', 'Environmental', 'Visual', 'Phoneme']",Rae_1_A_E_AV_P,
None,1,baseline,0.05,db,hard,2,1,4.0,Environmental,1,8,14,down,2,2.00474893451,0.25,1.22193751224,1,1,1,1,car door,right,car door,True,779.059704065,True,list1.yaml,female,2017-Jan-19-155340,right,"['Auditory', 'Environmental', 'Visual', 'Phoneme']",Rae_1_A_E_AV_P,
None,1,baseline,0.05,db,easy,2,3,4.0,Environmental,0,8,15,down,2,1.59242868221,1.1,1.99858334485,1,1,1,1,elephant,up,thunder,False,789.723566055,False,list1.yaml,female,2017-Jan-19-155340,right,"['Auditory', 'Environmental', 'Visual', 'Phoneme']",Rae_1_A_E_AV_P,
None,1,baseline,0.05,db,easy,2,3,4.0,Environmental,0,9,16,down,2,1.59242868221,1.16666666667,2.16647918561,1,1,1,1,train whistle,right,racecar,False,799.739326954,False,list1.yaml,female,2017-Jan-19-155340,right,"['Auditory', 'Environmental', 'Visual', 'Phoneme']",Rae_1_A_E_AV_P,
None,1,baseline,0.05,db,hard,2,1,4.0,Environmental,1,9,17,down,2,1.59242868221,1.26666666667,2.23760419586,1,1,1,1,duck,up,duck,True,809.019135952,True,list1.yaml,female,2017-Jan-19-155340,right,"['Auditory', 'Environmental', 'Visual', 'Phoneme']",Rae_1_A_E_AV_P,
None,1,baseline,0.05,db,hard,2,1,4.0,Environmental,1,10,18,down,2,1.26491106407,1.75,2.44364583612,1,1,1,1,glass breaking,up,door opening,False,820.034868956,False,list1.yaml,female,2017-Jan-19-155340,right,"['Auditory', 'Environmental', 'Visual', 'Phoneme']",Rae_1_A_E_AV_P,
None,1,baseline,0.05,db,easy,2,3,4.0,Environmental,0,10,19,up,2,2.00474893451,0.383333333333,1.32362499318,1,1,1,1,rock splashing into water,right,rock splashing into water,True,830.57079196,True,list1.yaml,female,2017-Jan-19-155340,right,"['Auditory', 'Environmental', 'Visual', 'Phoneme']",Rae_1_A_E_AV_P,
None,1,baseline,0.05,db,easy,4,3,1.0,Visual,0,6,10,down,4,0.398107170553,0.0166666666667,1.31797919375,1,1,1,1,trace,up,trace,True,842.122565985,True,list1.yaml,female,2017-Jan-19-155340,right,"['Auditory', 'Environmental', 'Visual', 'Phoneme']",Rae_1_A_E_AV_P,
None,1,baseline,0.05,db,hard,4,1,1.0,Visual,1,6,11,down,4,0.63095734448,1.46666666667,2.73460417675,1,1,1,1,wine,up,wine,True,852.082374096,True,list1.yaml,female,2017-Jan-19-155340,right,"['Auditory', 'Environmental', 'Visual', 'Phoneme']",Rae_1_A_E_AV_P,
None,1,baseline,0.05,db,easy,4,3,1.0,Visual,0,7,12,down,4,0.251188643151,1.8,2.83437500096,1,1,1,1,tear,left,care,False,863.786276102,False,list1.yaml,female,2017-Jan-19-155340,right,"['Auditory', 'Environmental', 'Visual', 'Phoneme']",Rae_1_A_E_AV_P,
None,1,baseline,0.05,db,hard,4,1,1.0,Visual,1,7,13,down,4,0.398107170553,0.0333333333333,1.00097918401,1,1,1,1,den,up,den,True,873.562035084,True,list1.yaml,female,2017-Jan-19-155340,right,"['Auditory', 'Environmental', 'Visual', 'Phoneme']",Rae_1_A_E_AV_P,
None,1,baseline,0.05,db,easy,4,3,1.0,Visual,0,8,14,down,4,0.251188643151,0.85,1.88437500096,1,1,1,1,snow,down,stow,False,883.881890059,False,list1.yaml,female,2017-Jan-19-155340,right,"['Auditory', 'Environmental', 'Visual', 'Phoneme']",Rae_1_A_E_AV_P,
None,1,baseline,0.05,db,hard,4,1,1.0,Visual,1,8,15,down,4,0.251188643151,0.0333333333333,0.967604211042,1,1,1,1,pop,up,mop,False,896.705739021,False,list1.yaml,female,2017-Jan-19-155340,right,"['Auditory', 'Environmental', 'Visual', 'Phoneme']",Rae_1_A_E_AV_P,
None,1,baseline,0.05,db,hard,4,1,1.0,Visual,1,9,16,up,4,0.398107170553,1.4,2.73466663039,1,1,1,1,grade,down,braid,False,908.43355608,False,list1.yaml,female,2017-Jan-19-155340,right,"['Auditory', 'Environmental', 'Visual', 'Phoneme']",Rae_1_A_E_AV_P,
None,1,baseline,0.05,db,easy,4,3,1.0,Visual,0,9,17,down,4,0.251188643151,1.21666666667,2.38449997987,1,1,1,1,best,down,best,True,918.92121911,True,list1.yaml,female,2017-Jan-19-155340,right,"['Auditory', 'Environmental', 'Visual', 'Phoneme']",Rae_1_A_E_AV_P,
None,1,baseline,0.05,db,hard,4,1,1.0,Visual,1,10,18,up,4,0.63095734448,0.933333333333,2.00108332025,1,1,1,1,set,down,set,True,928.777054071,True,list1.yaml,female,2017-Jan-19-155340,right,"['Auditory', 'Environmental', 'Visual', 'Phoneme']",Rae_1_A_E_AV_P,
None,1,baseline,0.05,db,easy,4,3,1.0,Visual,0,10,19,down,4,0.158489319246,0.833333333333,1.90108332025,1,1,1,1,pen,left,pen,True,938.456879139,True,list1.yaml,female,2017-Jan-19-155340,right,"['Auditory', 'Environmental', 'Visual', 'Phoneme']",Rae_1_A_E_AV_P,
None,1,main,0.05,db,easy,4,3,2.00474893451,Environmental,0,1,0,start,4,4.0,0.266666666667,1.26687502831,1,1,1,1,water running,left,bongo drums,False,951.048794985,False,list1.yaml,female,2017-Jan-19-155340,right,"['Auditory', 'Environmental', 'Visual', 'Phoneme']",Rae_1_A_E_AV_P,
None,1,main,0.05,db,hard,4,1,1.26491106407,Environmental,1,1,1,start,4,4.0,1.03333333333,2.0316457982,1,1,1,1,tropical bird,left,tropical bird,True,960.768511057,True,list1.yaml,female,2017-Jan-19-155340,right,"['Auditory', 'Environmental', 'Visual', 'Phoneme']",Rae_1_A_E_AV_P,
None,1,main,0.05,db,easy,4,3,2.00474893451,Environmental,0,2,2,up,4,6.33957276984,0.466666666667,1.13281250455,1,1,1,1,whip crack,up,whip crack,True,970.920373917,True,list1.yaml,female,2017-Jan-19-155340,right,"['Auditory', 'Environmental', 'Visual', 'Phoneme']",Rae_1_A_E_AV_P,
None,1,main,0.05,db,hard,4,1,1.26491106407,Environmental,1,2,3,down,4,2.52382937792,2.01666666667,2.96249998544,1,1,1,1,helicopter,right,keyboard typing,False,980.992190123,False,list1.yaml,female,2017-Jan-19-155340,right,"['Auditory', 'Environmental', 'Visual', 'Phoneme']",Rae_1_A_E_AV_P,
None,1,main,0.05,db,hard,4,1,1.26491106407,Environmental,1,3,4,up,4,4.0,1.88333333333,2.5520208502,1,1,1,1,ice in a glass,up,ice in a glass,True,990.32803297,True,list1.yaml,female,2017-Jan-19-155340,right,"['Auditory', 'Environmental', 'Visual', 'Phoneme']",Rae_1_A_E_AV_P,
None,1,main,0.05,db,easy,4,3,2.00474893451,Environmental,0,3,5,down,4,4.0,1.01666666667,1.95695832651,1,1,1,1,rock splashing into water,right,rock splashing into water,True,1001.57585597,True,list1.yaml,female,2017-Jan-19-155340,right,"['Auditory', 'Environmental', 'Visual', 'Phoneme']",Rae_1_A_E_AV_P,
None,1,main,0.05,db,easy,4,3,2.00474893451,Environmental,0,4,6,down,4,2.52382937792,0.65,1.54858334485,1,1,1,1,elephant,right,elephant,True,1011.79973698,True,list1.yaml,female,2017-Jan-19-155340,right,"['Auditory', 'Environmental', 'Visual', 'Phoneme']",Rae_1_A_E_AV_P,
None,1,main,0.05,db,hard,4,1,1.26491106407,Environmental,1,4,7,down,4,2.52382937792,0.416666666667,1.03106249669,1,1,1,1,bird chirping,up,bird chirping,True,1020.807549,True,list1.yaml,female,2017-Jan-19-155340,right,"['Auditory', 'Environmental', 'Visual', 'Phoneme']",Rae_1_A_E_AV_P,
None,1,main,0.05,db,easy,4,3,2.00474893451,Environmental,0,5,8,down,4,1.59242868221,1.86666666667,2.57729163755,1,1,1,1,toilet flushing,right,cat,False,1032.14340711,False,list1.yaml,female,2017-Jan-19-155340,right,"['Auditory', 'Environmental', 'Visual', 'Phoneme']",Rae_1_A_E_AV_P,
None,1,main,0.05,db,hard,4,1,1.26491106407,Environmental,1,5,9,down,4,1.59242868221,0.05,1.01206252724,1,1,1,1,cow,down,cow,True,1042.29512501,True,list1.yaml,female,2017-Jan-19-155340,right,"['Auditory', 'Environmental', 'Visual', 'Phoneme']",Rae_1_A_E_AV_P,
None,1,main,0.05,db,easy,4,3,2.00474893451,Environmental,0,6,10,down,4,1.59242868221,1.25,2.23874995374,1,1,1,1,bowling,down,helicopter,False,1052.76697111,False,list1.yaml,female,2017-Jan-19-155340,right,"['Auditory', 'Environmental', 'Visual', 'Phoneme']",Rae_1_A_E_AV_P,
None,1,main,0.05,db,hard,4,1,1.26491106407,Environmental,1,6,11,down,4,1.0047545726,1.75,2.5095416388,1,1,1,1,drums,right,helicopter,False,1062.81477499,False,list1.yaml,female,2017-Jan-19-155340,right,"['Auditory', 'Environmental', 'Visual', 'Phoneme']",Rae_1_A_E_AV_P,
None,1,main,0.05,db,easy,4,3,2.00474893451,Environmental,0,7,12,down,4,1.59242868221,2.05,2.70752082919,1,1,1,1,frog,right,frog,True,1074.86257911,True,list1.yaml,female,2017-Jan-19-155340,right,"['Auditory', 'Environmental', 'Visual', 'Phoneme']",Rae_1_A_E_AV_P,
None,1,main,0.05,db,hard,4,1,1.26491106407,Environmental,1,7,13,up,4,1.59242868221,1.75,2.7496041435,1,1,1,1,microwave,up,microwave,True,1086.51051807,True,list1.yaml,female,2017-Jan-19-155340,right,"['Auditory', 'Environmental', 'Visual', 'Phoneme']",Rae_1_A_E_AV_P,
None,1,main,0.05,db,easy,4,3,2.00474893451,Environmental,0,8,14,down,4,1.0047545726,1.43333333333,2.24443749987,1,1,1,1,bell,left,bell,True,1097.03039098,True,list1.yaml,female,2017-Jan-19-155340,right,"['Auditory', 'Environmental', 'Visual', 'Phoneme']",Rae_1_A_E_AV_P,
None,1,main,0.05,db,hard,4,1,1.26491106407,Environmental,1,8,15,down,4,1.0047545726,1.6,2.60145832469,1,1,1,1,tambourine,down,tambourine,True,1106.32611012,True,list1.yaml,female,2017-Jan-19-155340,right,"['Auditory', 'Environmental', 'Visual', 'Phoneme']",Rae_1_A_E_AV_P,
None,1,main,0.05,db,hard,4,1,1.26491106407,Environmental,1,9,16,down,4,0.633957276984,1.43333333333,2.42939579954,1,1,1,1,door creaking,left,bike horn,False,1116.58993101,False,list1.yaml,female,2017-Jan-19-155340,right,"['Auditory', 'Environmental', 'Visual', 'Phoneme']",Rae_1_A_E_AV_P,
None,1,main,0.05,db,easy,4,3,2.00474893451,Environmental,0,9,17,down,4,0.633957276984,0.366666666667,1.36666666667,1,1,1,1,sheep,up,water bubbling,False,1126.70967007,False,list1.yaml,female,2017-Jan-19-155340,right,"['Auditory', 'Environmental', 'Visual', 'Phoneme']",Rae_1_A_E_AV_P,
None,1,main,0.05,db,hard,4,1,1.26491106407,Environmental,1,10,18,up,4,1.0047545726,0.4,1.14999997765,1,1,1,1,water dripping,right,water dripping,True,1136.94154096,True,list1.yaml,female,2017-Jan-19-155340,right,"['Auditory', 'Environmental', 'Visual', 'Phoneme']",Rae_1_A_E_AV_P,
